{
  "resourceType": "Bundle",
  "entry": [
    {
      "resource": {
        "resourceType": "Composition",
        "id": "1",
        "identifier": {
          "use": "official",
          "system": "urn:oid:2.16.840.1.113883.19.5.99999.1",
          "value": "TT662"
        },
        "status": "preliminary",
        "type": {
          "coding": [
            {
              "system": "http://loinc.org",
              "code": "34133-9",
              "display": "Summarization of Episode Note"
            }
          ]
        },
        "category": [
          {
            "coding": [
              {
                "system": "http://hl7.org/fhir/ValueSet/doc-classcodes",
                "code": "LP173421-7",
                "display": "Note"
              }
            ]
          }
        ],
        "subject": {
          "reference": "Patient/2",
          "display": "Richard Maur jr"
        },
        "date": "2015-07-22T18:00:00-05:00",
        "author": [
          {
            "reference": "Practitioner/4",
            "display": "Dr Henry Seven"
          }
        ],
        "title": "170.315_b1_toc_gold_sample2 test data",
        "confidentiality": "N",
        "attester": [
          {
            "mode": "legal",
            "time": "2015-07-22",
            "party": {
              "reference": "Practitioner/6",
              "display": "Dr Henry Seven"
            }
          },
          {
            "mode": "professional",
            "time": "2015-07-22",
            "party": {
              "reference": "Practitioner/6",
              "display": "Dr Henry Seven"
            }
          }
        ],
        "custodian": {
          "reference": "Organization/10",
          "display": "Community Health and Hospitals"
        },
        "event": [
          {
            "period": {
              "start": "2015-07-22T18:00:00-05:00",
              "end": "2015-07-22T23:00:00+00:00"
            },
            "detail": [
              {
                "reference": "Practitioner/8",
                "display": "Dr Henry Seven"
              },
              {
                "reference": "Practitioner/11",
                "display": "Mary McDonald"
              }
            ]
          }
        ],
        "section": [
          {
            "title": "ALLERGIES AND ADVERSE REACTIONS",
            "code": {
              "coding": [
                {
                  "system": "http://loinc.org",
                  "code": "48765-2"
                }
              ]
            },
            "text": {
              "status": "additional",
              "div": "<div xmlns=\"http://www.w3.org/1999/xhtml\">No Known Drug Allergies</div>"
            },
            "mode": "snapshot",
            "entry": [
              {
                "reference": "AllergyIntolerance/14"
              }
            ]
          },
          {
            "title": "PROCEDURES",
            "code": {
              "coding": [
                {
                  "system": "http://loinc.org",
                  "code": "47519-4",
                  "display": "HISTORY OF PROCEDURES"
                }
              ]
            },
            "text": {
              "status": "additional",
              "div": "<div xmlns=\"http://www.w3.org/1999/xhtml\"><table border=\"1\" width=\"100%\"><thead><tr><th>Procedure</th><th>Date</th></tr></thead><tbody><tr><td>Application of Dressing for burn</td><td>July 22, 2015</td></tr></tbody></table></div>"
            },
            "mode": "snapshot",
            "entry": [
              {
                "reference": "Procedure/15",
                "display": "Application of Dressing for burn"
              }
            ]
          },
          {
            "title": "IMMUNIZATIONS",
            "code": {
              "coding": [
                {
                  "system": "http://loinc.org",
                  "code": "11369-6",
                  "display": "History of immunizations"
                }
              ]
            },
            "text": {
              "status": "additional",
              "div": "<div xmlns=\"http://www.w3.org/1999/xhtml\">No immunization history</div>"
            },
            "mode": "snapshot",
            "entry": [
              {
                "reference": "Immunization/19",
                "display": "Vaccination"
              }
            ]
          },
          {
            "title": "PROBLEMS",
            "code": {
              "coding": [
                {
                  "system": "http://loinc.org",
                  "code": "11450-4",
                  "display": "PROBLEM LIST"
                }
              ]
            },
            "text": {
              "status": "additional",
              "div": "<div xmlns=\"http://www.w3.org/1999/xhtml\"><span>No known <span>health problems</span></span></div>"
            },
            "mode": "snapshot",
            "entry": [
              {
                "reference": "Condition/20",
                "display": "No known"
              }
            ]
          },
          {
            "title": "SOCIAL HISTORY",
            "code": {
              "coding": [
                {
                  "system": "http://loinc.org",
                  "code": "29762-2",
                  "display": "Social History"
                }
              ]
            },
            "text": {
              "status": "additional",
              "div": "<div xmlns=\"http://www.w3.org/1999/xhtml\"><table border=\"1\" width=\"100%\"><thead><tr><th>Social History Observation</th><th>Description</th><th>Dates Observed</th></tr></thead><tbody><tr><td>Current Smoking Status</td><td>Current every day</td><td>July 22, 2015</td></tr></tbody></table></div>"
            },
            "mode": "snapshot",
            "entry": [
              {
                "reference": "Observation/21",
                "display": "Tobacco smoking status NHIS"
              }
            ]
          },
          {
            "title": "VITAL SIGNS",
            "code": {
              "coding": [
                {
                  "system": "http://loinc.org",
                  "code": "8716-3",
                  "display": "VITAL SIGNS"
                }
              ]
            },
            "text": {
              "status": "additional",
              "div": "<div xmlns=\"http://www.w3.org/1999/xhtml\"><table border=\"1\" width=\"100%\"><thead><tr><th align=\"right\">Date / Time: </th><th>June 22, 2015</th></tr></thead><tbody><tr><th align=\"left\">Blood Pressure</th><td>145/88</td></tr></tbody></table>  <!-- added for inp -db --><table border=\"1\" width=\"100%\"><thead><tr><th align=\"right\">Date / Time: </th><th>July 22, 2015</th></tr></thead><tbody><tr><th align=\"left\">Body Temperature</th><td>99 degrees Fahrenheit</td></tr></tbody></table></div>"
            },
            "mode": "snapshot",
            "entry": [
              {
                "reference": "Observation/22",
                "display": "Intravascular Systolic"
              },
              {
                "reference": "Observation/23",
                "display": "BP Diastolic"
              },
              {
                "reference": "Observation/24",
                "display": "Body Temperature"
              }
            ]
          },
          {
            "title": "MEDICATIONS",
            "code": {
              "coding": [
                {
                  "system": "http://loinc.org",
                  "code": "10160-0",
                  "display": "HISTORY OF MEDICATION USE"
                }
              ]
            },
            "text": {
              "status": "additional",
              "div": "<div xmlns=\"http://www.w3.org/1999/xhtml\">No known Medications</div>"
            },
            "mode": "snapshot",
            "entry": [
              {
                "reference": "MedicationStatement/25"
              }
            ]
          }
        ]
      }
    },
    {
      "resource": {
        "resourceType": "Patient",
        "id": "2",
        "identifier": [
          {
            "use": "official",
            "system": "urn:oid:2.16.840.1.113883.4.1",
            "value": "414122222"
          }
        ],
        "name": [
          {
            "use": "usual",
            "family": "Maur",
            "given": [
              "Richard"
            ],
            "suffix": [
              "jr"
            ]
          }
        ],
        "telecom": [
          {
            "system": "phone",
            "value": "+1(555)-777-1234",
            "use": "mobile"
          },
          {
            "system": "phone",
            "value": "+1(555)-723-1544",
            "use": "home"
          }
        ],
        "gender": "male",
        "birthDate": "1980-08-01",
        "address": [
          {
            "use": "home",
            "line": [
              "1357 Amber Dr"
            ],
            "city": "Beaverton",
            "state": "OR",
            "postalCode": "97006",
            "country": "US"
          }
        ],
        "communication": [
          {
            "language": {
              "coding": [
                {
                  "system": "http://hl7.org/fhir/ValueSet/languages",
                  "code": "en"
                }
              ]
            },
            "preferred": true
          }
        ],
        "managingOrganization": {
          "reference": "Organization/3",
          "display": "Community Health and Hospitals"
        }
      }
    },
    {
      "resource": {
        "resourceType": "Organization",
        "id": "3",
        "identifier": [
          {
            "use": "official",
            "system": "urn:oid:2.16.840.1.113883.4.6",
            "value": "99999999"
          }
        ],
        "name": "Community Health and Hospitals",
        "telecom": [
          {
            "system": "phone",
            "value": "+1(555)-555-5000",
            "use": "work"
          }
        ],
        "address": [
          {
            "line": [
              "1002 Healthcare Dr"
            ],
            "city": "Portland",
            "state": "OR",
            "postalCode": "97266",
            "country": "US"
          }
        ]
      }
    },
    {
      "resource": {
        "resourceType": "Practitioner",
        "id": "4",
        "identifier": [
          {
            "use": "official",
            "system": "urn:oid:2.16.840.1.113883.4.6",
            "value": "111111"
          }
        ],
        "name": [
          {
            "family": "Seven",
            "given": [
              "Henry"
            ],
            "prefix": [
              "Dr"
            ]
          }
        ],
        "telecom": [
          {
            "system": "phone",
            "value": "+1(555)-555-1002",
            "use": "work"
          }
        ],
        "address": [
          {
            "line": [
              "1002 Healthcare Dr"
            ],
            "city": "Portland",
            "state": "OR",
            "postalCode": "97266",
            "country": "US"
          }
        ]
      }
    },
    {
      "resource": {
        "resourceType": "Practitioner",
        "id": "6",
        "identifier": [
          {
            "use": "official",
            "system": "urn:oid:2.16.840.1.113883.4.6",
            "value": "999998899"
          }
        ],
        "name": [
          {
            "family": "Seven",
            "given": [
              "Henry"
            ],
            "prefix": [
              "Dr"
            ]
          }
        ],
        "telecom": [
          {
            "system": "phone",
            "value": "+1(555)-555-1002",
            "use": "work"
          }
        ],
        "address": [
          {
            "line": [
              "1002 Healthcare Dr"
            ],
            "city": "Portland",
            "state": "OR",
            "postalCode": "97266",
            "country": "US"
          }
        ]
      }
    },
    {
      "resource": {
        "resourceType": "Practitioner",
        "id": "8",
        "identifier": [
          {
            "use": "official",
            "system": "urn:oid:2.16.840.1.113883.4.6",
            "value": "5555555555"
          }
        ],
        "name": [
          {
            "family": "Seven",
            "given": [
              "Henry"
            ],
            "prefix": [
              "Dr"
            ]
          }
        ],
        "telecom": [
          {
            "system": "phone",
            "value": "+1(555)-555-1002",
            "use": "work"
          }
        ],
        "address": [
          {
            "line": [
              "1002 Healthcare Dr"
            ],
            "city": "Portland",
            "state": "OR",
            "postalCode": "97266",
            "country": "US"
          }
        ]
      }
    },
    {
      "resource": {
        "resourceType": "PractitionerRole",
        "id": "9",
        "practitioner": {
          "reference": "Practitioner/8",
          "display": "Dr Henry Seven"
        },
        "organization": {
          "reference": "Organization/10",
          "display": "Community Health and Hospitals"
        },
        "code": [
          {
            "coding": [
              {
                "system": "urn:oid:2.16.840.1.113883.6.101",
                "code": "207QA0505X",
                "display": "Adult Medicine"
              }
            ]
          }
        ]
      }
    },
    {
      "resource": {
        "resourceType": "Organization",
        "id": "10",
        "identifier": [
          {
            "use": "official",
            "system": "urn:oid:2.16.840.1.113883.4.6",
            "value": "99998899"
          }
        ],
        "name": "Community Health and Hospitals",
        "telecom": [
          {
            "system": "phone",
            "value": "+1(555)-555-5000",
            "use": "work"
          }
        ],
        "address": [
          {
            "line": [
              "1002 Healthcare Dr"
            ],
            "city": "Portland",
            "state": "OR",
            "postalCode": "97266",
            "country": "US"
          }
        ]
      }
    },
    {
      "resource": {
        "resourceType": "Practitioner",
        "id": "11",
        "identifier": [
          {
            "use": "official",
            "system": "urn:oid:1.3.6.1.4.1.22812.4.99930.4",
            "value": "91138"
          }
        ],
        "name": [
          {
            "family": "McDonald",
            "given": [
              "Mary"
            ]
          }
        ],
        "telecom": [
          {
            "system": "phone",
            "value": "+1(555)-555-1002",
            "use": "work"
          }
        ],
        "address": [
          {
            "line": [
              "1002 Healthcare Dr"
            ],
            "city": "Portland",
            "state": "OR",
            "postalCode": "97266",
            "country": "US"
          }
        ]
      }
    },
    {
      "resource": {
        "resourceType": "AllergyIntolerance",
        "id": "14",
        "identifier": [
          {
            "use": "official",
            "value": "36e3e930-7b15-11db-9fe1-0831200c9a66"
          }
        ],
        "clinicalStatus": {
          "coding": [
            {
              "system": "http://terminology.hl7.org/CodeSystem/allergyintolerance-clinical",
              "code": "active",
              "display": "Active"
            }
          ]
        },
        "verificationStatus": {
          "coding": [
            {
              "system": "http://terminology.hl7.org/CodeSystem/allergyintolerance-verification",
              "code": "confirmed",
              "display": "Confirmed"
            }
          ]
        },
        "type": "allergy",
        "category": [
          "medication"
        ],
        "patient": {
          "reference": "Patient/2",
          "display": "Richard Maur jr"
        },
        "recordedDate": "2015-07-22"
      }
    },
    {
      "resource": {
        "resourceType": "Procedure",
        "id": "15",
        "identifier": [
          {
            "use": "official",
            "value": "d68b7e32-7810-4f5b-9cc2-acd54b0fd85d"
          }
        ],
        "status": "completed",
        "code": {
          "coding": [
            {
              "system": "http://snomed.info/sct",
              "code": "90660004",
              "display": "Application of Dressing for burn"
            }
          ]
        },
        "subject": {
          "reference": "Patient/2",
          "display": "Richard Maur jr"
        },
        "performedPeriod": {
          "start": "2015-07-22",
          "end": "2015-07-22"
        },
        "performer": [
          {
            "actor": {
              "reference": "Practitioner/16"
            },
            "onBehalfOf": {
              "reference": "Organization/18"
            }
          }
        ],
        "bodySite": [
          {
            "coding": [
              {
                "system": "http://snomed.info/sct",
                "code": "281737009",
                "display": "Skin of part of forearm"
              }
            ]
          }
        ]
      }
    },
    {
      "resource": {
        "resourceType": "Practitioner",
        "id": "16",
        "identifier": [
          {
            "use": "official",
            "system": "urn:oid:2.16.840.1.113883.19.5.9999.456",
            "value": "2981823"
          }
        ],
        "telecom": [
          {
            "system": "phone",
            "value": "+1(555)-555-5000",
            "use": "work"
          }
        ],
        "address": [
          {
            "use": "work",
            "line": [
              "1002 Healthcare Dr"
            ],
            "city": "Portland",
            "state": "OR",
            "postalCode": "97266",
            "country": "US"
          }
        ]
      }
    },
    {
      "resource": {
        "resourceType": "PractitionerRole",
        "id": "17",
        "practitioner": {
          "reference": "Practitioner/16"
        },
        "organization": {
          "reference": "Organization/18",
          "display": "Community Health and Hospitals"
        }
      }
    },
    {
      "resource": {
        "resourceType": "Organization",
        "id": "18",
        "identifier": [
          {
            "use": "official",
            "value": "2.16.840.1.113883.19.5.9999.1393"
          }
        ],
        "name": "Community Health and Hospitals",
        "telecom": [
          {
            "system": "phone",
            "value": "+1(555)-555-5000",
            "use": "work"
          }
        ],
        "address": [
          {
            "use": "work",
            "line": [
              "1002 Healthcare Dr"
            ],
            "city": "Portland",
            "state": "OR",
            "postalCode": "97266",
            "country": "US"
          }
        ]
      }
    },
    {
      "resource": {
        "resourceType": "Immunization",
        "id": "19",
        "identifier": [
          {
            "use": "official",
            "value": "de10790f-1496-4729-8fe6-f1b87b6219f7"
          }
        ],
        "status": "completed",
        "vaccineCode": {
          "coding": [
            {
              "system": "http://snomed.info/sct",
              "code": "71181003",
              "display": "vaccine"
            }
          ],
          "text": "Vaccination"
        },
        "patient": {
          "reference": "Patient/2",
          "display": "Richard Maur jr"
        },
        "primarySource": false
      }
    },
    {
      "resource": {
        "resourceType": "Condition",
        "id": "20",
        "identifier": [
          {
            "use": "official",
            "value": "4adc1021-7b14-11db-9fe1-0836200c9a67"
          }
        ],
        "clinicalStatus": {
          "coding": [
            {
              "system": "http://terminology.hl7.org/CodeSystem/condition-clinical",
              "code": "active",
              "display": "Active"
            }
          ]
        },
        "verificationStatus": {
          "coding": [
            {
              "system": "http://terminology.hl7.org/CodeSystem/condition-ver-status",
              "code": "confirmed",
              "display": "Confirmed"
            }
          ]
        },
        "category": [
          {
            "coding": [
              {
                "system": "http://hl7.org/fhir/condition-category",
                "code": "problem-list-item",
                "display": "Problem List Item"
              }
            ]
          }
        ],
        "code": {
          "coding": [
            {
              "system": "http://snomed.info/sct",
              "code": "55607006",
              "display": "Problem"
            }
          ],
          "text": "No known"
        },
        "subject": {
          "reference": "Patient/2",
          "display": "Richard Maur jr"
        },
        "onsetDateTime": "2015-07-22"
      }
    },
    {
      "resource": {
        "resourceType": "Observation",
        "id": "21",
        "identifier": [
          {
            "use": "official",
            "system": "urn:oid:2.16.840.1.113883.19",
            "value": "123456789"
          }
        ],
        "status": "final",
        "code": {
          "coding": [
            {
              "system": "http://loinc.org",
              "code": "72166-2",
              "display": "Tobacco smoking status NHIS"
            }
          ]
        },
        "subject": {
          "reference": "Patient/2",
          "display": "Richard Maur jr"
        },
        "effectivePeriod": {
          "start": "2015-07-22"
        },
        "valueCodeableConcept": {
          "coding": [
            {
              "system": "http://snomed.info/sct",
              "code": "449868002",
              "display": "Current every day smoker"
            }
          ]
        }
      }
    },
    {
      "resource": {
        "resourceType": "Observation",
        "id": "22",
        "identifier": [
          {
            "use": "official",
            "value": "a0e39c70-9674-4b2a-9837-cdf74200d8d5"
          }
        ],
        "status": "final",
        "code": {
          "coding": [
            {
              "system": "http://loinc.org",
              "code": "8480-6",
              "display": "Intravascular Systolic"
            }
          ]
        },
        "subject": {
          "reference": "Patient/2",
          "display": "Richard Maur jr"
        },
        "effectivePeriod": {
          "start": "2015-07-22"
        },
        "valueQuantity": {
          "value": 145,
          "unit": "mm[Hg]"
        },
        "interpretation": [
          {
            "coding": [
              {
                "system": "http://hl7.org/fhir/v2/0078",
                "code": "N"
              }
            ]
          }
        ]
      }
    },
    {
      "resource": {
        "resourceType": "Observation",
        "id": "23",
        "identifier": [
          {
            "use": "official",
            "value": "1c2748b7-e440-41ba-bc01-dde97d84a036"
          }
        ],
        "status": "final",
        "code": {
          "coding": [
            {
              "system": "http://loinc.org",
              "code": "8462-4",
              "display": "BP Diastolic"
            }
          ]
        },
        "subject": {
          "reference": "Patient/2",
          "display": "Richard Maur jr"
        },
        "effectivePeriod": {
          "start": "2015-07-22"
        },
        "valueQuantity": {
          "value": 88,
          "unit": "mm[Hg]"
        },
        "interpretation": [
          {
            "coding": [
              {
                "system": "http://hl7.org/fhir/v2/0078",
                "code": "N"
              }
            ]
          }
        ]
      }
    },
    {
      "resource": {
        "resourceType": "Observation",
        "id": "24",
        "identifier": [
          {
            "use": "official",
            "value": "ed9589fd-fda0-42f7-a3d0-dc537554f5c2"
          }
        ],
        "status": "final",
        "code": {
          "coding": [
            {
              "system": "http://loinc.org",
              "code": "8310-5",
              "display": "Body Temperature"
            }
          ]
        },
        "subject": {
          "reference": "Patient/2",
          "display": "Richard Maur jr"
        },
        "effectivePeriod": {
          "start": "2015-07-22"
        },
        "valueQuantity": {
          "value": 99,
          "unit": "[degF]"
        },
        "interpretation": [
          {
            "coding": [
              {
                "system": "http://hl7.org/fhir/v2/0078",
                "code": "N"
              }
            ]
          }
        ]
      }
    },
    {
      "resource": {
        "resourceType": "MedicationStatement",
        "id": "25",
        "extension": [
          {
            "url": "http://hl7.org/fhir/3.0/StructureDefinition/extension-MedicationStatement.status",
            "valueCode": "UNKNOWN"
          }
        ],
        "identifier": [
          {
            "use": "official",
            "value": "cdbd33f0-6cde-11db-9fe1-0833200c9a66"
          }
        ],
        "status": "active",
        "medicationReference": {
          "reference": "Medication/26"
        },
        "subject": {
          "reference": "Patient/2",
          "display": "Richard Maur jr"
        }
      }
    },
    {
      "resource": {
        "resourceType": "Medication",
        "id": "26"
      }
    }
  ]
}