{
  "resourceType": "Bundle",
  "entry": [
    {
      "resource": {
        "resourceType": "Composition",
        "id": "1",
        "identifier": {
          "use": "official",
          "system": "urn:oid:2.16.840.1.113883.19.5.99999.1",
          "value": "TT988"
        },
        "status": "preliminary",
        "type": {
          "coding": [
            {
              "system": "http://loinc.org",
              "code": "34133-9",
              "display": "Summarization of Episode Note"
            }
          ]
        },
        "category": [
          {
            "coding": [
              {
                "system": "http://hl7.org/fhir/ValueSet/doc-classcodes",
                "code": "LP173421-7",
                "display": "Note"
              }
            ]
          }
        ],
        "subject": {
          "reference": "Patient/2",
          "display": "Eve Betterhalf"
        },
        "date": "2013-08-15T10:30:00-08:00",
        "author": [
          {
            "reference": "Practitioner/4",
            "display": "Patricia Patty Primary M.D."
          }
        ],
        "title": "Patient Chart Summary",
        "confidentiality": "N",
        "attester": [
          {
            "mode": "legal",
            "time": "2013-08-15T22:36:15-08:00",
            "party": {
              "reference": "Practitioner/4",
              "display": "Patricia Patty Primary M.D."
            }
          },
          {
            "mode": "professional",
            "time": "2013-08-15T22:15:45-08:00",
            "party": {
              "reference": "Practitioner/4",
              "display": "Patricia Patty Primary M.D."
            }
          }
        ],
        "custodian": {
          "reference": "Organization/6",
          "display": "Good Health HIE"
        },
        "event": [
          {
            "period": {
              "start": "1975-05-01",
              "end": "2013-08-15"
            },
            "detail": [
              {
                "reference": "Practitioner/4",
                "display": "Patricia Patty Primary M.D."
              }
            ]
          }
        ],
        "section": [
          {
            "title": "PROBLEMS",
            "code": {
              "coding": [
                {
                  "system": "http://loinc.org",
                  "code": "11450-4",
                  "display": "PROBLEM LIST"
                }
              ]
            },
            "text": {
              "status": "additional",
              "div": "<div xmlns=\"http://www.w3.org/1999/xhtml\"><p>Active Concerns</p><ul><li>Problem #1<ul><li>Pneumonia (onset July 3, 2013; resolution Aug 14, 2013) [authored Aug 14, 2013]</li></ul></li><li>Problem #2<ul><li>Chest pain (onset Apr 14, 2007) [authored Apr 14, 2007]</li><li>Angina (onset Apr 17, 2007) [authored Apr 17, 2007]</li></ul></li></ul><p>Resolved Concerns</p><ul><li>Problem #3<ul><li>Pneumonia - Left lower lobe (onset Mar 10, 1998; resolution Mar 16, 1998) [authored Mar 16,                    1998]</li></ul></li></ul></div>"
            },
            "mode": "snapshot",
            "entry": [
              {
                "reference": "Condition/7",
                "display": "Pneumonia"
              },
              {
                "reference": "Condition/10",
                "display": "Pneumonia"
              },
              {
                "reference": "Condition/11",
                "display": "Angina"
              },
              {
                "reference": "Condition/14",
                "display": "Chest pain"
              }
            ]
          },
          {
            "title": "MEDICATIONS",
            "code": {
              "coding": [
                {
                  "system": "http://loinc.org",
                  "code": "10160-0",
                  "display": "HISTORY OF MEDICATION USE"
                }
              ]
            },
            "text": {
              "status": "additional",
              "div": "<div xmlns=\"http://www.w3.org/1999/xhtml\"><table border=\"1\" width=\"100%\"><thead><tr><th>Medication</th><th>Directions</th><th>Start Date</th><th>Status</th><th>Indications</th><th>Fill Instructions</th></tr></thead><tbody><tr><td>Proventil 0.09 MG/ACTUAT inhalant solution</td><td>2 puffs q6 hours PRN wheezing</td><td>Jan 3, 2011</td><td>Active</td><td>Asthma</td><td>Generic Substitition Allowed</td></tr><tr><td>Atenolol 25 MG Oral Tablet</td><td>1 every 12 hours Orally</td><td>Mar 18, 2012</td><td>Active</td><td>Hypertension</td><td>-none-</td></tr></tbody></table></div>"
            },
            "mode": "snapshot",
            "entry": [
              {
                "reference": "MedicationStatement/15",
                "display": "Proventil 0.09 MG/ACTUAT inhalant solution"
              },
              {
                "reference": "MedicationStatement/28",
                "display": "Atenolol 25 MG Oral Tablet"
              }
            ]
          },
          {
            "title": "PROCEDURES",
            "code": {
              "coding": [
                {
                  "system": "http://loinc.org",
                  "code": "47519-4",
                  "display": "HISTORY OF PROCEDURES"
                }
              ]
            },
            "text": {
              "status": "additional",
              "div": "<div xmlns=\"http://www.w3.org/1999/xhtml\"><table border=\"1\" width=\"100%\"><thead><tr><th>Procedure</th><th>Date</th></tr></thead><tbody><tr><td>Colonic polypectomy</td><td>1998</td></tr></tbody></table></div>"
            },
            "mode": "snapshot",
            "entry": [
              {
                "reference": "Procedure/31",
                "display": "Colonic polypectomy"
              }
            ]
          },
          {
            "title": "SOCIAL HISTORY",
            "code": {
              "coding": [
                {
                  "system": "http://loinc.org",
                  "code": "29762-2",
                  "display": "Social History"
                }
              ]
            },
            "text": {
              "status": "additional",
              "div": "<div xmlns=\"http://www.w3.org/1999/xhtml\"><table border=\"1\" width=\"100%\"><thead><tr><th>Social History Observation</th><th>Description</th><th>Dates Observed</th></tr></thead><tbody><tr><td>Current Smoking Status</td><td>Former smoker</td><td>September 10, 2012</td></tr><tr><td>Tobacco Use</td><td>Moderate cigarette smoker, 10-19/day</td><td>February, 2009 - February, 2011</td></tr><tr><td>Alcoholic drinks per day</td><td>12</td><td>Since February, 2012</td></tr></tbody></table></div>"
            },
            "mode": "snapshot",
            "entry": [
              {
                "reference": "Observation/35",
                "display": "History of tobacco use"
              },
              {
                "reference": "Observation/36",
                "display": "Tobacco smoking status NHIS"
              },
              {
                "reference": "Observation/37",
                "display": "Alcoholic drinks per day"
              }
            ]
          },
          {
            "title": "MEDICAL EQUIPMENT",
            "code": {
              "coding": [
                {
                  "system": "http://loinc.org",
                  "code": "46264-8"
                }
              ]
            },
            "text": {
              "status": "additional",
              "div": "<div xmlns=\"http://www.w3.org/1999/xhtml\"><span>Medical Equipment</span><ul><li>Implanted Devices: Cardiac PaceMaker July 3, 2013</li><li>Implanted Devices: Upper GI Prosthesis, January 3, 2013</li><li>Cane, February 2, 2003</li></ul><span>Biliary Stent, May 5, 2013</span></div>"
            },
            "mode": "snapshot",
            "entry": [
              {
                "reference": "Device/38",
                "display": "Upper GI Prosthesis"
              },
              {
                "reference": "Device/39",
                "display": "Cardiac Pacemaker"
              },
              {
                "reference": "Device/40",
                "display": "Upper GI Prosthesis"
              },
              {
                "reference": "Procedure/41",
                "display": "Colonic polypectomy"
              }
            ]
          },
          {
            "title": "ALLERGIES AND ADVERSE REACTIONS",
            "code": {
              "coding": [
                {
                  "system": "http://loinc.org",
                  "code": "48765-2"
                }
              ]
            },
            "text": {
              "status": "additional",
              "div": "<div xmlns=\"http://www.w3.org/1999/xhtml\"><table border=\"1\" width=\"100%\"><thead><tr><th>Substance</th><th>Reaction</th></tr></thead><tbody><tr><td>Penicillin</td><td>Nausea</td></tr><tr><td>Codeine</td><td>Wheezing</td></tr></tbody></table></div>"
            },
            "mode": "snapshot",
            "entry": [
              {
                "reference": "AllergyIntolerance/45",
                "display": "Codeine"
              },
              {
                "reference": "AllergyIntolerance/48",
                "display": "Penicillin"
              }
            ]
          },
          {
            "title": "FAMILY HISTORY",
            "code": {
              "coding": [
                {
                  "system": "http://loinc.org",
                  "code": "10157-6"
                }
              ]
            },
            "text": {
              "status": "additional",
              "div": "<div xmlns=\"http://www.w3.org/1999/xhtml\"><p>Father (deceased)</p><table border=\"1\" width=\"100%\"><thead><tr><th>Diagnosis</th><th>Age At Onset</th></tr></thead><tbody><tr><td>Myocardial Infarction (cause of death)</td><td>57</td></tr><tr><td>Diabetes</td><td>40</td></tr></tbody></table></div>"
            },
            "mode": "snapshot",
            "entry": [
              {
                "reference": "FamilyMemberHistory/49"
              }
            ]
          },
          {
            "title": "FUNCTIONAL STATUS",
            "code": {
              "coding": [
                {
                  "system": "http://loinc.org",
                  "code": "47420-5",
                  "display": "Functional Status"
                }
              ]
            },
            "text": {
              "status": "additional",
              "div": "<div xmlns=\"http://www.w3.org/1999/xhtml\"><table border=\"1\" width=\"100%\"><thead><tr><th>Functional Category</th><th>Effective Dates</th><th>Results of Evaluation</th></tr></thead><tbody><tr><td>Functional Assessment</td><td>March 11, 2013</td><td>Independent Walking</td></tr><tr><td>ADL/IADL: Bathing</td><td>March 11,2013</td><td>Independent</td></tr></tbody></table></div>"
            },
            "mode": "snapshot",
            "entry": [
              {
                "reference": "Observation/50",
                "display": " Independent walking"
              },
              {
                "reference": "Observation/52",
                "display": "Independent"
              }
            ]
          },
          {
            "title": "VITAL SIGNS",
            "code": {
              "coding": [
                {
                  "system": "http://loinc.org",
                  "code": "8716-3",
                  "display": "VITAL SIGNS"
                }
              ]
            },
            "text": {
              "status": "additional",
              "div": "<div xmlns=\"http://www.w3.org/1999/xhtml\"><table border=\"1\" width=\"100%\"><thead><tr><th align=\"right\">Date / Time: </th><th>Sept 10, 2012</th><th>Sept 1, 2011</th></tr></thead><tbody><tr><th align=\"left\">Height</th><td>177 cm</td><td>177 cm</td></tr><tr><th align=\"left\">Weight</th><td>86 kg</td><td>88 kg</td></tr><tr><th align=\"left\">Blood Pressure</th><td>132/88</td><td>128/80</td></tr></tbody></table></div>"
            },
            "mode": "snapshot",
            "entry": [
              {
                "reference": "Observation/53",
                "display": "Height"
              },
              {
                "reference": "Observation/54",
                "display": "Patient Body Weight - Measured"
              },
              {
                "reference": "Observation/55",
                "display": "BP Systolic"
              },
              {
                "reference": "Observation/56",
                "display": "BP Diastolic"
              },
              {
                "reference": "Observation/57",
                "display": "Height"
              },
              {
                "reference": "Observation/58",
                "display": "Intravascular Systolic"
              },
              {
                "reference": "Observation/59",
                "display": "BP Diastolic"
              },
              {
                "reference": "Observation/60",
                "display": "Patient Body Weight - Measured"
              }
            ]
          },
          {
            "title": "ENCOUNTERS",
            "code": {
              "coding": [
                {
                  "system": "http://loinc.org",
                  "code": "46240-8",
                  "display": "History of encounters"
                }
              ]
            },
            "text": {
              "status": "additional",
              "div": "<div xmlns=\"http://www.w3.org/1999/xhtml\"><table border=\"1\" width=\"100%\"><thead><tr><th>Encounter</th><th>Performer</th><th>Location</th><th>Date</th></tr></thead><tbody><tr><td> Checkup Examination </td><td>Performer Name</td><td>Community Urgent Care Center</td><td>September 27, 2012 at 1:00pm</td></tr></tbody></table></div>"
            },
            "mode": "snapshot",
            "entry": [
              {
                "reference": "Encounter/61",
                "display": "Checkup Examination"
              }
            ]
          },
          {
            "title": "IMMUNIZATIONS",
            "code": {
              "coding": [
                {
                  "system": "http://loinc.org",
                  "code": "11369-6",
                  "display": "History of immunizations"
                }
              ]
            },
            "text": {
              "status": "additional",
              "div": "<div xmlns=\"http://www.w3.org/1999/xhtml\"><span/><table border=\"1\" width=\"100%\"><thead><tr><th>Vaccine</th><th>Date</th><th>Status</th><th>Series number</th></tr></thead><tbody><tr><td><span/> Influenza, seasonal, IM </td><td>Nov 1999</td><td>Completed</td><td>N/A</td></tr><tr><td><span/> Influenza, seasonal, IM </td><td>Dec 1998</td><td>Completed</td><td>N/A</td></tr><tr><td><span/> Pneumococcal polysaccharide vaccine, IM </td><td>Dec 1998</td><td>Completed</td><td>N/A</td></tr><tr><td><span/> Tetanus and diphtheria toxoids, IM </td><td>1997</td><td>Refused</td><td>N/A</td></tr><tr><td>Hepatitis B</td><td>Aug 1, 2013</td><td>Completed</td><td>3rd</td></tr></tbody></table></div>"
            },
            "mode": "snapshot",
            "entry": [
              {
                "reference": "Immunization/66",
                "display": "Tetanus and diphtheria toxoids - preservative free"
              },
              {
                "reference": "Immunization/71",
                "display": "Influenza virus vaccine"
              },
              {
                "reference": "Immunization/73",
                "display": "Pneumococcal polysaccharide vaccine"
              },
              {
                "reference": "Immunization/76",
                "display": "Influenza virus vaccine"
              },
              {
                "reference": "Immunization/78",
                "display": "Hepatitis B vaccine"
              }
            ]
          },
          {
            "title": "RESULTS",
            "code": {
              "coding": [
                {
                  "system": "http://loinc.org",
                  "code": "30954-2",
                  "display": "RESULTS"
                }
              ]
            },
            "text": {
              "status": "additional",
              "div": "<div xmlns=\"http://www.w3.org/1999/xhtml\"><table><thead><tr><th>Result Type</th><th>Result Value</th><th>Relevant Reference Range</th><th>Interpretation</th><th>Date</th></tr></thead><tbody><tr><td>Hemoglobin</td><td>13.2 g/dL</td><td>Normal range for women is 12.0 to 15.5 grams per deciliter</td><td>Normal</td><td>03/19/2008</td></tr><tr><td>Leukocytes</td><td>6.7 10*9/L</td><td>Normal white blood cell count range 3.5-10.5 billion cells/L</td><td>Normal</td><td>03/19/2008</td></tr><tr><td>Platelets</td><td>123 10*9/L</td><td>Normal white blood cell count range 3.5-10.5 billion cells/L</td><td>Low</td><td>03/19/2008</td></tr><tr><td>Hematocrit</td><td>35.3 %</td><td>Normal hematocrit range for female: 34.9-44.5 percent</td><td>Normal</td><td>03/19/2008</td></tr><tr><td>Erythrocytes</td><td>4.21 10*12/L</td><td>Normal red blood cell count range 3.90-5.03 trillion cells/L</td><td>Normal</td><td>03/19/2008</td></tr><tr><td>Urea nitrogen, Serum</td><td>Pending</td><td>Pending</td><td>Pending</td><td>March 20, 2008</td></tr></tbody></table></div>"
            },
            "mode": "snapshot",
            "entry": [
              {
                "reference": "DiagnosticReport/79",
                "display": "CBC W Auto Differential panel in Blood"
              },
              {
                "reference": "DiagnosticReport/87",
                "display": "Blood chemistry test"
              }
            ]
          }
        ]
      }
    },
    {
      "resource": {
        "resourceType": "Patient",
        "id": "2",
        "identifier": [
          {
            "use": "official",
            "system": "urn:oid:2.16.840.1.113883.4.1",
            "value": "444222222"
          }
        ],
        "name": [
          {
            "use": "usual",
            "family": "Betterhalf",
            "given": [
              "Eve"
            ]
          }
        ],
        "telecom": [
          {
            "system": "phone",
            "value": "+1(555)555-2003",
            "use": "home"
          }
        ],
        "gender": "female",
        "birthDate": "1975-05-01",
        "address": [
          {
            "use": "home",
            "line": [
              "2222 Home Street"
            ],
            "city": "Beaverton",
            "state": "OR",
            "postalCode": "97867",
            "country": "US"
          }
        ],
        "maritalStatus": {
          "coding": [
            {
              "system": "http://terminology.hl7.org/CodeSystem/v3-MaritalStatus",
              "code": "M",
              "display": "Married"
            }
          ]
        },
        "contact": [
          {
            "relationship": [
              {
                "coding": [
                  {
                    "system": "http://terminology.hl7.org/CodeSystem/v2-0131",
                    "code": "O",
                    "display": "Other"
                  }
                ]
              }
            ],
            "name": {
              "family": "Betterhalf",
              "given": [
                "Boris",
                "Bo"
              ]
            },
            "telecom": [
              {
                "system": "phone",
                "value": "+1(555)555-2008",
                "use": "mobile"
              }
            ],
            "address": {
              "use": "home",
              "line": [
                "2222 Home Street"
              ],
              "city": "Beaverton",
              "state": "OR",
              "postalCode": "97867",
              "country": "US"
            }
          }
        ],
        "communication": [
          {
            "language": {
              "coding": [
                {
                  "system": "http://hl7.org/fhir/ValueSet/languages",
                  "code": "en"
                }
              ]
            },
            "preferred": true
          }
        ],
        "managingOrganization": {
          "reference": "Organization/3",
          "display": "The DoctorsTogether Physician Group"
        }
      }
    },
    {
      "resource": {
        "resourceType": "Organization",
        "id": "3",
        "identifier": [
          {
            "use": "official",
            "system": "urn:oid:2.16.840.1.113883.4.6",
            "value": "219BX"
          }
        ],
        "name": "The DoctorsTogether Physician Group",
        "telecom": [
          {
            "system": "phone",
            "value": " +1(555)555-5000",
            "use": "work"
          }
        ],
        "address": [
          {
            "line": [
              "1007 Health Drive"
            ],
            "city": "Portland",
            "state": "OR",
            "postalCode": "99123",
            "country": "US"
          }
        ]
      }
    },
    {
      "resource": {
        "resourceType": "Practitioner",
        "id": "4",
        "identifier": [
          {
            "use": "official",
            "system": "urn:oid:2.16.840.1.113883.4.6",
            "value": "5555555555"
          }
        ],
        "name": [
          {
            "family": "Primary",
            "given": [
              "Patricia",
              "Patty"
            ],
            "suffix": [
              "M.D."
            ]
          }
        ],
        "telecom": [
          {
            "system": "phone",
            "value": "+1(555)555-1004",
            "use": "work"
          }
        ],
        "address": [
          {
            "line": [
              "1004 Healthcare Drive"
            ],
            "city": "Portland",
            "state": "OR",
            "postalCode": "99123",
            "country": "US"
          }
        ]
      }
    },
    {
      "resource": {
        "resourceType": "Organization",
        "id": "6",
        "identifier": [
          {
            "use": "official",
            "system": "urn:oid:2.16.840.1.113883.4.6",
            "value": "321CX"
          }
        ],
        "name": "Good Health HIE",
        "telecom": [
          {
            "system": "phone",
            "value": "+1(555)555-1009",
            "use": "work"
          }
        ],
        "address": [
          {
            "use": "work",
            "line": [
              "1009 Healthcare Drive"
            ],
            "city": "Portland",
            "state": "OR",
            "postalCode": "99123",
            "country": "US"
          }
        ]
      }
    },
    {
      "resource": {
        "resourceType": "Condition",
        "id": "7",
        "identifier": [
          {
            "use": "official",
            "value": "10506b4d-c30a-4220-8bec-97bff9568fd1"
          }
        ],
        "clinicalStatus": {
          "coding": [
            {
              "system": "http://terminology.hl7.org/CodeSystem/condition-clinical",
              "code": "inactive",
              "display": "Inactive"
            }
          ]
        },
        "verificationStatus": {
          "coding": [
            {
              "system": "http://terminology.hl7.org/CodeSystem/condition-ver-status",
              "code": "refuted",
              "display": "Refuted"
            }
          ]
        },
        "category": [
          {
            "coding": [
              {
                "system": "http://hl7.org/fhir/condition-category",
                "code": "problem-list-item",
                "display": "Problem List Item"
              }
            ]
          }
        ],
        "code": {
          "coding": [
            {
              "system": "http://snomed.info/sct",
              "code": "233604007",
              "display": "Pneumonia"
            }
          ]
        },
        "subject": {
          "reference": "Patient/2",
          "display": "Eve Betterhalf"
        },
        "onsetDateTime": "1998-03-10",
        "abatementDateTime": "1998-03-16",
        "recordedDate": "1998-03-16T10:30:00-08:00",
        "asserter": {
          "reference": "Practitioner/8"
        }
      }
    },
    {
      "resource": {
        "resourceType": "Practitioner",
        "id": "8",
        "identifier": [
          {
            "use": "official",
            "system": "urn:oid:2.16.840.1.113883.4.6",
            "value": "555555555"
          }
        ]
      }
    },
    {
      "resource": {
        "resourceType": "Condition",
        "id": "10",
        "identifier": [
          {
            "use": "official",
            "value": "ab1791b0-5c71-11db-b0de-0800200c9a66"
          }
        ],
        "clinicalStatus": {
          "coding": [
            {
              "system": "http://terminology.hl7.org/CodeSystem/condition-clinical",
              "code": "inactive",
              "display": "Inactive"
            }
          ]
        },
        "verificationStatus": {
          "coding": [
            {
              "system": "http://terminology.hl7.org/CodeSystem/condition-ver-status",
              "code": "confirmed",
              "display": "Confirmed"
            }
          ]
        },
        "category": [
          {
            "coding": [
              {
                "system": "http://hl7.org/fhir/condition-category",
                "code": "problem-list-item",
                "display": "Problem List Item"
              }
            ]
          }
        ],
        "code": {
          "coding": [
            {
              "system": "http://snomed.info/sct",
              "code": "233604007",
              "display": "Pneumonia"
            }
          ]
        },
        "subject": {
          "reference": "Patient/2",
          "display": "Eve Betterhalf"
        },
        "onsetDateTime": "2013-07-03",
        "abatementDateTime": "2008-08-14",
        "recordedDate": "2008-08-14T10:30:00-08:00",
        "asserter": {
          "reference": "Practitioner/8"
        }
      }
    },
    {
      "resource": {
        "resourceType": "Condition",
        "id": "11",
        "identifier": [
          {
            "use": "official",
            "value": "4991db40-4c4f-41e8-9146-50c12d716424"
          }
        ],
        "clinicalStatus": {
          "coding": [
            {
              "system": "http://terminology.hl7.org/CodeSystem/condition-clinical",
              "code": "active",
              "display": "Active"
            }
          ]
        },
        "verificationStatus": {
          "coding": [
            {
              "system": "http://terminology.hl7.org/CodeSystem/condition-ver-status",
              "code": "confirmed",
              "display": "Confirmed"
            }
          ]
        },
        "category": [
          {
            "coding": [
              {
                "system": "http://hl7.org/fhir/condition-category",
                "code": "problem-list-item",
                "display": "Problem List Item"
              }
            ]
          }
        ],
        "code": {
          "coding": [
            {
              "system": "http://snomed.info/sct",
              "code": "194828000",
              "display": "Angina"
            }
          ]
        },
        "subject": {
          "reference": "Patient/2",
          "display": "Eve Betterhalf"
        },
        "onsetDateTime": "2007-04-17",
        "recordedDate": "2007-04-17T15:15:00-08:00",
        "asserter": {
          "reference": "Practitioner/12"
        }
      }
    },
    {
      "resource": {
        "resourceType": "Practitioner",
        "id": "12",
        "identifier": [
          {
            "use": "official",
            "system": "urn:oid:2.16.840.1.113883.4.6",
            "value": "222334444"
          }
        ]
      }
    },
    {
      "resource": {
        "resourceType": "Condition",
        "id": "14",
        "identifier": [
          {
            "use": "official",
            "value": "11d088a8-b957-401c-8ee0-3bd20a772fc0"
          }
        ],
        "clinicalStatus": {
          "coding": [
            {
              "system": "http://terminology.hl7.org/CodeSystem/condition-clinical",
              "code": "active",
              "display": "Active"
            }
          ]
        },
        "verificationStatus": {
          "coding": [
            {
              "system": "http://terminology.hl7.org/CodeSystem/condition-ver-status",
              "code": "confirmed",
              "display": "Confirmed"
            }
          ]
        },
        "category": [
          {
            "coding": [
              {
                "system": "http://hl7.org/fhir/condition-category",
                "code": "problem-list-item",
                "display": "Problem List Item"
              }
            ]
          }
        ],
        "code": {
          "coding": [
            {
              "system": "http://snomed.info/sct",
              "code": "29857009",
              "display": "Chest pain"
            }
          ]
        },
        "subject": {
          "reference": "Patient/2",
          "display": "Eve Betterhalf"
        },
        "onsetDateTime": "2007-04-14",
        "recordedDate": "2007-04-14T15:15:00-08:00",
        "asserter": {
          "reference": "Practitioner/8"
        }
      }
    },
    {
      "resource": {
        "resourceType": "MedicationStatement",
        "id": "15",
        "extension": [
          {
            "url": "http://hl7.org/fhir/3.0/StructureDefinition/extension-MedicationStatement.status",
            "valueCode": "UNKNOWN"
          }
        ],
        "identifier": [
          {
            "use": "official",
            "value": "cdbd33f0-6cde-11db-9fe1-0800200c9a66"
          }
        ],
        "status": "active",
        "medicationReference": {
          "reference": "Medication/16",
          "display": "Proventil 0.09 MG/ACTUAT inhalant solution"
        },
        "subject": {
          "reference": "Patient/2",
          "display": "Eve Betterhalf"
        },
        "effectivePeriod": {
          "start": "2011-01-03"
        },
        "reasonReference": [
          {
            "reference": "Condition/18",
            "display": "Asthma"
          }
        ],
        "dosage": [
          {
            "timing": {
              "repeat": {
                "period": 6,
                "periodUnit": "h"
              }
            },
            "route": {
              "coding": [
                {
                  "system": "http://www.nlm.nih.gov/research/umls/nci",
                  "code": "C38216",
                  "display": "RESPIRATORY (INHALATION)"
                }
              ]
            },
            "doseAndRate": [
              {
                "doseQuantity": {
                  "value": 2,
                  "unit": "1",
                  "system": "http://unitsofmeasure.org/ucum.html"
                }
              }
            ]
          }
        ]
      }
    },
    {
      "resource": {
        "resourceType": "Organization",
        "id": "17",
        "name": "Medication Factory Inc."
      }
    },
    {
      "resource": {
        "resourceType": "Medication",
        "id": "16",
        "code": {
          "coding": [
            {
              "system": "http://www.nlm.nih.gov/research/umls/rxnorm",
              "code": "573621",
              "display": "Proventil 0.09 MG/ACTUAT inhalant solution"
            },
            {
              "system": "http://www.nlm.nih.gov/research/umls/rxnorm",
              "code": "219483",
              "display": "Proventil HFA"
            }
          ]
        },
        "manufacturer": {
          "reference": "Organization/17",
          "display": "Medication Factory Inc."
        }
      }
    },
    {
      "resource": {
        "resourceType": "Condition",
        "id": "18",
        "identifier": [
          {
            "use": "official",
            "system": "urn:uuid:db734647-fc99-424c-a864-7e3cda82e703",
            "value": "45665"
          }
        ],
        "clinicalStatus": {
          "coding": [
            {
              "system": "http://terminology.hl7.org/CodeSystem/condition-clinical",
              "code": "active",
              "display": "Active"
            }
          ]
        },
        "category": [
          {
            "coding": [
              {
                "system": "http://hl7.org/fhir/condition-category",
                "code": "problem-list-item",
                "display": "Problem List Item"
              }
            ]
          },
          {
            "coding": [
              {
                "system": "http://hl7.org/fhir/condition-category",
                "code": "encounter-diagnosis",
                "display": "Encounter Diagnosis"
              }
            ]
          }
        ],
        "code": {
          "coding": [
            {
              "system": "http://snomed.info/sct",
              "code": "195967001",
              "display": "Asthma"
            }
          ]
        },
        "subject": {
          "reference": "Patient/2",
          "display": "Eve Betterhalf"
        },
        "onsetDateTime": "2011-01-03"
      }
    },
    {
      "resource": {
        "resourceType": "MedicationRequest",
        "id": "19",
        "status": "completed",
        "intent": "instance-order",
        "medicationReference": {
          "reference": "Medication/20",
          "display": "Proventil 0.09 MG/ACTUAT inhalant solution"
        },
        "subject": {
          "reference": "Patient/2",
          "display": "Eve Betterhalf"
        },
        "requester": {
          "reference": "Practitioner/4",
          "display": "Patricia Patty Primary M.D."
        },
        "dispenseRequest": {
          "validityPeriod": {
            "start": "2007-01-03"
          },
          "numberOfRepeatsAllowed": 1,
          "quantity": {
            "value": 75,
            "unit": "1"
          }
        }
      }
    },
    {
      "resource": {
        "resourceType": "Organization",
        "id": "21",
        "name": "Medication Factory Inc."
      }
    },
    {
      "resource": {
        "resourceType": "Medication",
        "id": "20",
        "code": {
          "coding": [
            {
              "system": "http://www.nlm.nih.gov/research/umls/rxnorm",
              "code": "573621",
              "display": "Proventil 0.09 MG/ACTUAT inhalant solution"
            }
          ]
        },
        "manufacturer": {
          "reference": "Organization/21",
          "display": "Medication Factory Inc."
        }
      }
    },
    {
      "resource": {
        "resourceType": "MedicationDispense",
        "id": "22",
        "identifier": [
          {
            "use": "official",
            "system": "urn:oid:1.2.3.4.56789.1",
            "value": "cb734647-fc99-424c-a864-7e3cda82e704"
          }
        ],
        "status": "completed",
        "medicationReference": {
          "reference": "Medication/23",
          "display": "Proventil 0.09 MG/ACTUAT inhalant solution"
        },
        "subject": {
          "reference": "Patient/2",
          "display": "Eve Betterhalf"
        },
        "performer": [
          {
            "actor": {
              "reference": "Practitioner/25",
              "display": "Susan Script Pharm.D."
            }
          }
        ],
        "quantity": {
          "value": 75,
          "unit": "1",
          "system": "http://unitsofmeasure.org/ucum.html"
        },
        "whenPrepared": "2012-08-15T14:50:00-08:00",
        "dosageInstruction": [
          {
            "timing": {
              "event": [
                "2012-08-15T14:50:00-08:00"
              ]
            },
            "doseAndRate": [
              {
                "doseQuantity": {
                  "value": 75,
                  "unit": "1",
                  "system": "http://unitsofmeasure.org/ucum.html"
                }
              }
            ]
          }
        ]
      }
    },
    {
      "resource": {
        "resourceType": "Organization",
        "id": "24",
        "name": "Medication Factory Inc."
      }
    },
    {
      "resource": {
        "resourceType": "Medication",
        "id": "23",
        "code": {
          "coding": [
            {
              "system": "http://www.nlm.nih.gov/research/umls/rxnorm",
              "code": "573621",
              "display": "Proventil 0.09 MG/ACTUAT inhalant solution"
            }
          ]
        },
        "manufacturer": {
          "reference": "Organization/24",
          "display": "Medication Factory Inc."
        }
      }
    },
    {
      "resource": {
        "resourceType": "Practitioner",
        "id": "25",
        "identifier": [
          {
            "use": "official",
            "system": "urn:oid:2.16.840.1.113883.4.6",
            "value": "333222222"
          }
        ],
        "name": [
          {
            "family": "Script",
            "given": [
              "Susan"
            ],
            "suffix": [
              "Pharm.D."
            ]
          }
        ],
        "telecom": [
          {
            "system": "phone",
            "value": "+1(555)555-1016",
            "use": "work"
          }
        ],
        "address": [
          {
            "line": [
              "1016 Health Drive"
            ],
            "city": "Portland",
            "state": "OR",
            "postalCode": "99123",
            "country": "US"
          }
        ]
      }
    },
    {
      "resource": {
        "resourceType": "PractitionerRole",
        "id": "26",
        "practitioner": {
          "reference": "Practitioner/25",
          "display": "Susan Script Pharm.D."
        },
        "organization": {
          "reference": "Organization/27",
          "display": "People's Pharmacy"
        }
      }
    },
    {
      "resource": {
        "resourceType": "Organization",
        "id": "27",
        "name": "People's Pharmacy"
      }
    },
    {
      "resource": {
        "resourceType": "MedicationStatement",
        "id": "28",
        "extension": [
          {
            "url": "http://hl7.org/fhir/3.0/StructureDefinition/extension-MedicationStatement.status",
            "valueCode": "UNKNOWN"
          }
        ],
        "identifier": [
          {
            "use": "official",
            "value": "6c844c75-aa34-411c-b7bd-5e4a9f206e29"
          }
        ],
        "status": "active",
        "medicationReference": {
          "reference": "Medication/29",
          "display": "Atenolol 25 MG Oral Tablet"
        },
        "subject": {
          "reference": "Patient/2",
          "display": "Eve Betterhalf"
        },
        "effectivePeriod": {
          "start": "2012-03-18"
        },
        "informationSource": {
          "reference": "Practitioner/4",
          "display": "Patricia Patty Primary M.D."
        },
        "reasonReference": [
          {
            "reference": "Condition/30",
            "display": "Hypertension"
          }
        ],
        "dosage": [
          {
            "timing": {
              "repeat": {
                "period": 12,
                "periodUnit": "h"
              }
            },
            "route": {
              "coding": [
                {
                  "system": "http://www.nlm.nih.gov/research/umls/nci",
                  "code": "C38288",
                  "display": "ORAL"
                }
              ]
            },
            "doseAndRate": [
              {
                "doseQuantity": {
                  "value": 1,
                  "unit": "1",
                  "system": "http://unitsofmeasure.org/ucum.html"
                }
              }
            ]
          }
        ]
      }
    },
    {
      "resource": {
        "resourceType": "Medication",
        "id": "29",
        "code": {
          "coding": [
            {
              "system": "http://www.nlm.nih.gov/research/umls/rxnorm",
              "code": "197380",
              "display": "Atenolol 25 MG Oral Tablet"
            }
          ]
        }
      }
    },
    {
      "resource": {
        "resourceType": "Condition",
        "id": "30",
        "identifier": [
          {
            "use": "official",
            "value": "e63166c7-6482-4a44-83a1-37ccdbde725b"
          }
        ],
        "category": [
          {
            "coding": [
              {
                "system": "http://hl7.org/fhir/condition-category",
                "code": "problem-list-item",
                "display": "Problem List Item"
              }
            ]
          }
        ],
        "code": {
          "coding": [
            {
              "system": "http://snomed.info/sct",
              "code": "38341003",
              "display": "Hypertension"
            }
          ]
        },
        "subject": {
          "reference": "Patient/2",
          "display": "Eve Betterhalf"
        }
      }
    },
    {
      "resource": {
        "resourceType": "Procedure",
        "id": "31",
        "identifier": [
          {
            "use": "official",
            "value": "d68b7e32-7810-4f5b-9cc2-acd54b0fd85d"
          }
        ],
        "status": "completed",
        "code": {
          "coding": [
            {
              "system": "http://snomed.info/sct",
              "code": "73761001",
              "display": "Colonoscopy"
            }
          ],
          "text": "Colonic polypectomy"
        },
        "subject": {
          "reference": "Patient/2",
          "display": "Eve Betterhalf"
        },
        "encounter": {
          "reference": "Encounter/61",
          "display": "Colonic polypectomy"
        },
        "performedPeriod": {
          "start": "2012-05-12"
        },
        "performer": [
          {
            "actor": {
              "reference": "Practitioner/32"
            },
            "onBehalfOf": {
              "reference": "Organization/34"
            }
          }
        ],
        "bodySite": [
          {
            "coding": [
              {
                "system": "urn:oid:2.16.840.1.113883.3.88.12.3221.8.9",
                "code": "appropriate_code",
                "display": "colon"
              }
            ]
          }
        ]
      }
    },
    {
      "resource": {
        "resourceType": "Practitioner",
        "id": "32",
        "identifier": [
          {
            "use": "official",
            "system": "urn:oid:2.16.840.1.113883.19.5.9999.456",
            "value": "2981823"
          }
        ],
        "telecom": [
          {
            "system": "phone",
            "value": "+1(555)555-5000",
            "use": "work"
          }
        ],
        "address": [
          {
            "line": [
              "1001 Village Avenue"
            ],
            "city": "Portland",
            "state": "OR",
            "postalCode": "99123",
            "country": "US"
          }
        ]
      }
    },
    {
      "resource": {
        "resourceType": "PractitionerRole",
        "id": "33",
        "practitioner": {
          "reference": "Practitioner/32"
        },
        "organization": {
          "reference": "Organization/34",
          "display": "Community Health and Hospitals"
        }
      }
    },
    {
      "resource": {
        "resourceType": "Organization",
        "id": "34",
        "identifier": [
          {
            "use": "official",
            "value": "2.16.840.1.113883.19.5.9999.1393"
          }
        ],
        "name": "Community Health and Hospitals",
        "telecom": [
          {
            "system": "phone",
            "value": "+1(555)555-5000",
            "use": "work"
          }
        ],
        "address": [
          {
            "line": [
              "1001 Village Avenue"
            ],
            "city": "Portland",
            "state": "OR",
            "postalCode": "99123",
            "country": "US"
          }
        ]
      }
    },
    {
      "resource": {
        "resourceType": "Observation",
        "id": "35",
        "identifier": [
          {
            "use": "official",
            "value": "45efb604-7049-4a2e-ad33-d38556c9636c"
          }
        ],
        "status": "final",
        "code": {
          "coding": [
            {
              "system": "http://loinc.org",
              "code": "11367-0",
              "display": "History of tobacco use"
            }
          ]
        },
        "subject": {
          "reference": "Patient/2",
          "display": "Eve Betterhalf"
        },
        "effectivePeriod": {
          "start": "2009-02-14",
          "end": "2011-02-15"
        },
        "issued": "2012-09-10T11:45:00-08:00",
        "performer": [
          {
            "reference": "Practitioner/8"
          }
        ],
        "valueCodeableConcept": {
          "coding": [
            {
              "system": "http://snomed.info/sct",
              "code": "160604004",
              "display": "Moderate cigarette smoker, 10-19/day"
            }
          ]
        }
      }
    },
    {
      "resource": {
        "resourceType": "Observation",
        "id": "36",
        "identifier": [
          {
            "use": "official",
            "system": "urn:oid:2.16.840.1.113883.19",
            "value": "123456789"
          }
        ],
        "status": "final",
        "code": {
          "coding": [
            {
              "system": "http://loinc.org",
              "code": "72166-2",
              "display": "Tobacco smoking status NHIS"
            }
          ]
        },
        "subject": {
          "reference": "Patient/2",
          "display": "Eve Betterhalf"
        },
        "effectivePeriod": {
          "start": "2012-09-10"
        },
        "issued": "2012-09-10T11:45:00-08:00",
        "performer": [
          {
            "reference": "Practitioner/8"
          }
        ],
        "valueCodeableConcept": {
          "coding": [
            {
              "system": "http://snomed.info/sct",
              "code": "8517006",
              "display": "Former smoker"
            }
          ]
        }
      }
    },
    {
      "resource": {
        "resourceType": "Observation",
        "id": "37",
        "identifier": [
          {
            "use": "official",
            "value": "37f76c51-6411-4e1d-8a37-957fd49d2cef"
          }
        ],
        "status": "final",
        "code": {
          "coding": [
            {
              "system": "http://loinc.org",
              "code": "74013-4",
              "display": "Alcoholic drinks per day"
            }
          ]
        },
        "subject": {
          "reference": "Patient/2",
          "display": "Eve Betterhalf"
        },
        "effectivePeriod": {
          "start": "2012-02-15"
        },
        "issued": "2012-09-10T11:45:00-08:00",
        "performer": [
          {
            "reference": "Practitioner/8"
          }
        ],
        "valueQuantity": {
          "value": 12,
          "unit": "1"
        }
      }
    },
    {
      "resource": {
        "resourceType": "Device",
        "id": "38",
        "identifier": [
          {
            "use": "official",
            "value": "24993f33-6222-41ce-add6-37a9d3da6acb"
          }
        ],
        "type": {
          "coding": [
            {
              "system": "http://snomed.info/sct",
              "code": "87405001",
              "display": "cane"
            }
          ],
          "text": "Upper GI Prosthesis"
        },
        "patient": {
          "reference": "Patient/2",
          "display": "Eve Betterhalf"
        }
      }
    },
    {
      "resource": {
        "resourceType": "Device",
        "id": "39",
        "identifier": [
          {
            "use": "official",
            "value": "24993f33-6222-41ce-add6-37a9d3da6acb"
          }
        ],
        "type": {
          "coding": [
            {
              "system": "http://snomed.info/sct",
              "code": "14106009",
              "display": "cardiac pacemaker, device (physical object)"
            }
          ],
          "text": "Cardiac Pacemaker"
        },
        "patient": {
          "reference": "Patient/2",
          "display": "Eve Betterhalf"
        }
      }
    },
    {
      "resource": {
        "resourceType": "Device",
        "id": "40",
        "identifier": [
          {
            "use": "official",
            "value": "24993f33-6222-41ce-add6-37a9d3da6acb"
          }
        ],
        "type": {
          "coding": [
            {
              "system": "http://snomed.info/sct",
              "code": "303406003",
              "display": "upper gastrointestinal prosthesis (physical object)"
            }
          ],
          "text": "Upper GI Prosthesis"
        },
        "patient": {
          "reference": "Patient/2",
          "display": "Eve Betterhalf"
        }
      }
    },
    {
      "resource": {
        "resourceType": "Procedure",
        "id": "41",
        "identifier": [
          {
            "use": "official",
            "value": "d5b614bd-01ce-410d-8726-e1fd01dcc72a"
          }
        ],
        "status": "completed",
        "code": {
          "coding": [
            {
              "system": "http://snomed.info/sct",
              "code": "103716009",
              "display": "Stent Placement"
            }
          ],
          "text": "Colonic polypectomy"
        },
        "subject": {
          "reference": "Patient/2",
          "display": "Eve Betterhalf"
        },
        "performedPeriod": {
          "start": "2013-05-12"
        },
        "performer": [
          {
            "actor": {
              "reference": "Practitioner/42"
            },
            "onBehalfOf": {
              "reference": "Organization/44"
            }
          }
        ],
        "bodySite": [
          {
            "coding": [
              {
                "system": "http://snomed.info/sct",
                "code": "28273000",
                "display": "bile duct"
              }
            ]
          }
        ]
      }
    },
    {
      "resource": {
        "resourceType": "Practitioner",
        "id": "42",
        "identifier": [
          {
            "use": "official",
            "system": "urn:oid:2.16.840.1.113883.19",
            "value": "1234"
          }
        ],
        "telecom": [
          {
            "system": "phone",
            "value": " +1(555)-555-5004",
            "use": "work"
          }
        ],
        "address": [
          {
            "line": [
              "1004 Health Care Drive"
            ],
            "city": "Ann Arbor",
            "state": "MI",
            "postalCode": "02368",
            "country": "US"
          }
        ]
      }
    },
    {
      "resource": {
        "resourceType": "PractitionerRole",
        "id": "43",
        "practitioner": {
          "reference": "Practitioner/42"
        },
        "organization": {
          "reference": "Organization/44",
          "display": "Community Health and Hospitals"
        }
      }
    },
    {
      "resource": {
        "resourceType": "Organization",
        "id": "44",
        "identifier": [
          {
            "use": "official",
            "value": "2.16.840.1.113883.19.5"
          }
        ],
        "name": "Community Health and Hospitals",
        "telecom": [
          {
            "system": "phone",
            "value": "+1(555)-555-5005",
            "use": "work"
          }
        ],
        "address": [
          {
            "line": [
              "1003 Health Care Drive"
            ],
            "city": "Ann Arbor",
            "state": "MI",
            "postalCode": "02368",
            "country": "US"
          }
        ]
      }
    },
    {
      "resource": {
        "resourceType": "AllergyIntolerance",
        "id": "45",
        "identifier": [
          {
            "use": "official",
            "value": "b03805bd-2eb6-4ab8-a9ff-473c6653971a"
          }
        ],
        "clinicalStatus": {
          "coding": [
            {
              "system": "http://terminology.hl7.org/CodeSystem/allergyintolerance-clinical",
              "code": "active",
              "display": "Active"
            }
          ]
        },
        "verificationStatus": {
          "coding": [
            {
              "system": "http://terminology.hl7.org/CodeSystem/allergyintolerance-verification",
              "code": "confirmed",
              "display": "Confirmed"
            }
          ]
        },
        "type": "allergy",
        "category": [
          "environment"
        ],
        "code": {
          "coding": [
            {
              "system": "http://www.nlm.nih.gov/research/umls/rxnorm",
              "code": "2670",
              "display": "Codeine"
            }
          ]
        },
        "patient": {
          "reference": "Patient/2",
          "display": "Eve Betterhalf"
        },
        "recordedDate": "1998-05-01T11:45:00-08:00",
        "recorder": {
          "reference": "Practitioner/46"
        },
        "reaction": [
          {
            "manifestation": [
              {
                "coding": [
                  {
                    "system": "http://snomed.info/sct",
                    "code": "56018004",
                    "display": "Wheezing"
                  }
                ]
              }
            ],
            "severity": "moderate"
          }
        ]
      }
    },
    {
      "resource": {
        "resourceType": "Practitioner",
        "id": "46",
        "identifier": [
          {
            "use": "official",
            "system": "urn:oid:2.16.840.1.113883.4.6",
            "value": "222223333"
          }
        ]
      }
    },
    {
      "resource": {
        "resourceType": "AllergyIntolerance",
        "id": "48",
        "identifier": [
          {
            "use": "official",
            "value": "36e3e930-7b14-11db-9fe1-0800200c9a66"
          }
        ],
        "clinicalStatus": {
          "coding": [
            {
              "system": "http://terminology.hl7.org/CodeSystem/allergyintolerance-clinical",
              "code": "active",
              "display": "Active"
            }
          ]
        },
        "verificationStatus": {
          "coding": [
            {
              "system": "http://terminology.hl7.org/CodeSystem/allergyintolerance-verification",
              "code": "confirmed",
              "display": "Confirmed"
            }
          ]
        },
        "type": "allergy",
        "category": [
          "environment"
        ],
        "criticality": "high",
        "code": {
          "coding": [
            {
              "system": "http://www.nlm.nih.gov/research/umls/rxnorm",
              "code": "70618",
              "display": "Penicillin"
            }
          ]
        },
        "patient": {
          "reference": "Patient/2",
          "display": "Eve Betterhalf"
        },
        "onsetDateTime": "1998-05-01",
        "recordedDate": "1998-05-01T11:45:00-08:00",
        "recorder": {
          "reference": "Practitioner/46"
        },
        "reaction": [
          {
            "manifestation": [
              {
                "coding": [
                  {
                    "system": "http://snomed.info/sct",
                    "code": "422587007",
                    "display": "Nausea"
                  }
                ]
              }
            ],
            "onset": "2008-02-26T08:05:00-08:00",
            "severity": "mild"
          }
        ]
      }
    },
    {
      "resource": {
        "resourceType": "FamilyMemberHistory",
        "id": "49",
        "identifier": [
          {
            "use": "official",
            "value": "d42ebf70-5c89-11db-b0de-0855200c9a66"
          }
        ],
        "status": "completed",
        "patient": {
          "reference": "Patient/2",
          "display": "Eve Betterhalf"
        },
        "relationship": {
          "coding": [
            {
              "system": "urn:oid:2.16.840.1.113883.5.111",
              "code": "FTH",
              "display": "Father"
            }
          ]
        },
        "sex": {
          "coding": [
            {
              "system": "http://hl7.org/fhir/administrative-gender",
              "code": "male",
              "display": "Male"
            }
          ]
        },
        "bornDate": "1910",
        "deceasedBoolean": true,
        "condition": [
          {
            "code": {
              "coding": [
                {
                  "system": "http://snomed.info/sct",
                  "code": "44054006",
                  "display": "Diabetes mellitus type 2"
                }
              ]
            },
            "onsetAge": {
              "value": 40,
              "unit": "a",
              "system": "http://unitsofmeasure.org"
            }
          },
          {
            "code": {
              "coding": [
                {
                  "system": "http://snomed.info/sct",
                  "code": "22298006",
                  "display": "Myocardial infarction"
                }
              ]
            },
            "outcome": {
              "coding": [
                {
                  "system": "http://snomed.info/sct",
                  "code": "419099009",
                  "display": "Dead"
                }
              ]
            },
            "onsetAge": {
              "value": 57,
              "unit": "a",
              "system": "http://unitsofmeasure.org"
            }
          }
        ]
      }
    },
    {
      "resource": {
        "resourceType": "Observation",
        "id": "50",
        "identifier": [
          {
            "use": "official",
            "value": "b63a8636-cfff-4461-b018-40ba58ba8b32"
          }
        ],
        "status": "final",
        "category": [
          {
            "coding": [
              {
                "system": "http://loinc.org",
                "code": "54522-8",
                "display": "Functional status"
              }
            ]
          }
        ],
        "code": {
          "coding": [
            {
              "system": "http://snomed.info/sct",
              "code": "165245003",
              "display": " Independent walking"
            }
          ]
        },
        "subject": {
          "reference": "Patient/2",
          "display": "Eve Betterhalf"
        },
        "effectivePeriod": {
          "start": "2013-03-11"
        },
        "performer": [
          {
            "reference": "Practitioner/8"
          }
        ],
        "device": {
          "reference": "Device/51",
          "display": "cane, device (physical object)"
        }
      }
    },
    {
      "resource": {
        "resourceType": "Device",
        "id": "51",
        "identifier": [
          {
            "use": "official",
            "value": "742aee30-21c5-11e1-bfc2-0800200c9a66"
          }
        ],
        "type": {
          "coding": [
            {
              "system": "http://snomed.info/sct",
              "code": "87405001",
              "display": "cane, device (physical object)"
            }
          ]
        },
        "patient": {
          "reference": "Patient/2",
          "display": "Eve Betterhalf"
        }
      }
    },
    {
      "resource": {
        "resourceType": "Observation",
        "id": "52",
        "identifier": [
          {
            "use": "official",
            "value": "c6b5a04b-2bf4-49d1-8336-636a3813df0a"
          }
        ],
        "status": "final",
        "category": [
          {
            "coding": [
              {
                "system": "http://loinc.org",
                "code": "46008-9",
                "display": "Bathing"
              }
            ]
          }
        ],
        "code": {
          "coding": [
            {
              "system": "http://snomed.info/sct",
              "code": "371153006",
              "display": "Independent"
            }
          ]
        },
        "subject": {
          "reference": "Patient/2",
          "display": "Eve Betterhalf"
        },
        "performer": [
          {
            "reference": "Practitioner/8"
          }
        ]
      }
    },
    {
      "resource": {
        "resourceType": "Observation",
        "id": "53",
        "identifier": [
          {
            "use": "official",
            "value": "05c047cd-28c3-41cd-be6c-56f8cc0c3f2f"
          }
        ],
        "status": "final",
        "code": {
          "coding": [
            {
              "system": "http://loinc.org",
              "code": "8302-2",
              "display": "Height"
            }
          ]
        },
        "subject": {
          "reference": "Patient/2",
          "display": "Eve Betterhalf"
        },
        "effectivePeriod": {
          "start": "2011-09-01"
        },
        "issued": "2011-09-01T09:15:00-08:00",
        "performer": [
          {
            "reference": "Practitioner/8"
          }
        ],
        "valueQuantity": {
          "value": 177,
          "unit": "cm"
        },
        "interpretation": [
          {
            "coding": [
              {
                "system": "http://hl7.org/fhir/v2/0078",
                "code": "N"
              }
            ]
          }
        ]
      }
    },
    {
      "resource": {
        "resourceType": "Observation",
        "id": "54",
        "identifier": [
          {
            "use": "official",
            "value": "21b0f3d5-7d07-4f4f-ad7e-c33dc2ca3835"
          }
        ],
        "status": "final",
        "code": {
          "coding": [
            {
              "system": "http://loinc.org",
              "code": "3141-9",
              "display": "Patient Body Weight - Measured"
            }
          ]
        },
        "subject": {
          "reference": "Patient/2",
          "display": "Eve Betterhalf"
        },
        "effectivePeriod": {
          "start": "2011-09-01"
        },
        "issued": "2011-09-01T09:15:00-08:00",
        "performer": [
          {
            "reference": "Practitioner/8"
          }
        ],
        "valueQuantity": {
          "value": 88,
          "unit": "kg"
        },
        "interpretation": [
          {
            "coding": [
              {
                "system": "http://hl7.org/fhir/v2/0078",
                "code": "N"
              }
            ]
          }
        ]
      }
    },
    {
      "resource": {
        "resourceType": "Observation",
        "id": "55",
        "identifier": [
          {
            "use": "official",
            "value": "b046c35a-59c7-4215-ae09-9a8409a30b21"
          }
        ],
        "status": "final",
        "code": {
          "coding": [
            {
              "system": "http://loinc.org",
              "code": "8480-6",
              "display": "BP Systolic"
            }
          ]
        },
        "subject": {
          "reference": "Patient/2",
          "display": "Eve Betterhalf"
        },
        "effectivePeriod": {
          "start": "2011-09-01"
        },
        "issued": "2011-09-01T09:15:00-08:00",
        "performer": [
          {
            "reference": "Practitioner/8"
          }
        ],
        "valueQuantity": {
          "value": 128,
          "unit": "mm[Hg]"
        },
        "interpretation": [
          {
            "coding": [
              {
                "system": "http://hl7.org/fhir/v2/0078",
                "code": "N"
              }
            ]
          }
        ]
      }
    },
    {
      "resource": {
        "resourceType": "Observation",
        "id": "56",
        "identifier": [
          {
            "use": "official",
            "value": "44f54e66-fb4b-4ee5-9ced-9574ef307a23"
          }
        ],
        "status": "final",
        "code": {
          "coding": [
            {
              "system": "http://loinc.org",
              "code": "8462-4",
              "display": "BP Diastolic"
            }
          ]
        },
        "subject": {
          "reference": "Patient/2",
          "display": "Eve Betterhalf"
        },
        "effectivePeriod": {
          "start": "2011-09-01"
        },
        "issued": "2011-09-01T09:15:00-08:00",
        "performer": [
          {
            "reference": "Practitioner/8"
          }
        ],
        "valueQuantity": {
          "value": 80,
          "unit": "mm[Hg]"
        },
        "interpretation": [
          {
            "coding": [
              {
                "system": "http://hl7.org/fhir/v2/0078",
                "code": "N"
              }
            ]
          }
        ]
      }
    },
    {
      "resource": {
        "resourceType": "Observation",
        "id": "57",
        "identifier": [
          {
            "use": "official",
            "value": "ed9589fd-fda0-41f7-a3d0-dc537554f5c2"
          }
        ],
        "status": "final",
        "code": {
          "coding": [
            {
              "system": "http://loinc.org",
              "code": "8302-2",
              "display": "Height"
            }
          ]
        },
        "subject": {
          "reference": "Patient/2",
          "display": "Eve Betterhalf"
        },
        "effectivePeriod": {
          "start": "2012-09-10"
        },
        "issued": "2012-09-10T11:45:00-08:00",
        "performer": [
          {
            "reference": "Practitioner/8"
          }
        ],
        "valueQuantity": {
          "value": 177,
          "unit": "cm"
        },
        "interpretation": [
          {
            "coding": [
              {
                "system": "http://hl7.org/fhir/v2/0078",
                "code": "N"
              }
            ]
          }
        ]
      }
    },
    {
      "resource": {
        "resourceType": "Observation",
        "id": "58",
        "identifier": [
          {
            "use": "official",
            "value": "a0e39c70-9674-4b2a-9837-cdf74200d8d5"
          }
        ],
        "status": "final",
        "code": {
          "coding": [
            {
              "system": "http://loinc.org",
              "code": "8480-6",
              "display": "Intravascular Systolic"
            }
          ]
        },
        "subject": {
          "reference": "Patient/2",
          "display": "Eve Betterhalf"
        },
        "effectivePeriod": {
          "start": "2012-09-10"
        },
        "issued": "2012-09-10T11:45:00-08:00",
        "performer": [
          {
            "reference": "Practitioner/8"
          }
        ],
        "valueQuantity": {
          "value": 132,
          "unit": "mm[Hg]"
        },
        "interpretation": [
          {
            "coding": [
              {
                "system": "http://hl7.org/fhir/v2/0078",
                "code": "N"
              }
            ]
          }
        ]
      }
    },
    {
      "resource": {
        "resourceType": "Observation",
        "id": "59",
        "identifier": [
          {
            "use": "official",
            "value": "1c2748b7-e440-41ba-bc01-dde97d84a036"
          }
        ],
        "status": "final",
        "code": {
          "coding": [
            {
              "system": "http://loinc.org",
              "code": "8462-4",
              "display": "BP Diastolic"
            }
          ]
        },
        "subject": {
          "reference": "Patient/2",
          "display": "Eve Betterhalf"
        },
        "effectivePeriod": {
          "start": "2012-09-10"
        },
        "issued": "2011-09-01T09:15:00-08:00",
        "performer": [
          {
            "reference": "Practitioner/8"
          }
        ],
        "valueQuantity": {
          "value": 88,
          "unit": "mm[Hg]"
        },
        "interpretation": [
          {
            "coding": [
              {
                "system": "http://hl7.org/fhir/v2/0078",
                "code": "N"
              }
            ]
          }
        ]
      }
    },
    {
      "resource": {
        "resourceType": "Observation",
        "id": "60",
        "identifier": [
          {
            "use": "official",
            "value": "f4e729e2-a97f-4a7e-8e23-c92f9b6b55cf"
          }
        ],
        "status": "final",
        "code": {
          "coding": [
            {
              "system": "http://loinc.org",
              "code": "3141-9",
              "display": "Patient Body Weight - Measured"
            }
          ]
        },
        "subject": {
          "reference": "Patient/2",
          "display": "Eve Betterhalf"
        },
        "effectivePeriod": {
          "start": "2012-09-10"
        },
        "issued": "2012-09-10T11:45:00-08:00",
        "performer": [
          {
            "reference": "Practitioner/8"
          }
        ],
        "valueQuantity": {
          "value": 86,
          "unit": "kg"
        },
        "interpretation": [
          {
            "coding": [
              {
                "system": "http://hl7.org/fhir/v2/0078",
                "code": "N"
              }
            ]
          }
        ]
      }
    },
    {
      "resource": {
        "resourceType": "Encounter",
        "id": "61",
        "identifier": [
          {
            "use": "official",
            "value": "2a620155-9d11-439e-92b3-5d9815ff4de8"
          }
        ],
        "status": "finished",
        "type": [
          {
            "coding": [
              {
                "system": "http://www.ama-assn.org/go/cpt",
                "code": "99213",
                "display": "Office outpatient visit 15 minutes"
              }
            ],
            "text": "Checkup Examination"
          }
        ],
        "subject": {
          "reference": "Patient/2",
          "display": "Eve Betterhalf"
        },
        "participant": [
          {
            "type": [
              {
                "coding": [
                  {
                    "system": "http://hl7.org/fhir/v3/ParticipationType",
                    "code": "PART",
                    "display": "Participation"
                  }
                ]
              }
            ],
            "individual": {
              "reference": "Practitioner/62"
            }
          }
        ],
        "period": {
          "start": "2012-09-27T13:00:00+05:00"
        },
        "diagnosis": [
          {
            "condition": {
              "reference": "Condition/18",
              "display": "Asthma"
            }
          }
        ],
        "location": [
          {
            "location": {
              "reference": "Location/65",
              "display": "Good Health Urgent Care"
            }
          }
        ]
      }
    },
    {
      "resource": {
        "resourceType": "Practitioner",
        "id": "62",
        "identifier": [
          {
            "use": "official",
            "system": "urn:oid:2.16.840.1.113883.4.6",
            "value": "333444555"
          }
        ]
      }
    },
    {
      "resource": {
        "resourceType": "Location",
        "id": "65",
        "name": "Good Health Urgent Care",
        "telecom": [
          {
            "system": "phone",
            "value": " +1(555)555-1030",
            "use": "work"
          }
        ],
        "address": {
          "line": [
            "1007 Health Drive"
          ],
          "city": "Portland",
          "state": "OR",
          "postalCode": "99123",
          "country": "US"
        }
      }
    },
    {
      "resource": {
        "resourceType": "Immunization",
        "id": "66",
        "identifier": [
          {
            "use": "official",
            "value": "e6f1ba43-c0ed-4b9b-9f12-f435d8ad8f92"
          }
        ],
        "status": "completed",
        "vaccineCode": {
          "coding": [
            {
              "system": "urn:oid:2.16.840.1.113883.6.59",
              "code": "103",
              "display": "Tetanus and diphtheria toxoids - preservative free"
            }
          ]
        },
        "patient": {
          "reference": "Patient/2",
          "display": "Eve Betterhalf"
        },
        "occurrenceDateTime": "1998-12-15",
        "primarySource": true,
        "manufacturer": {
          "reference": "Organization/67",
          "display": "Health LS - Immuno Inc."
        },
        "lotNumber": "1",
        "route": {
          "coding": [
            {
              "system": "http://www.nlm.nih.gov/research/umls/nci",
              "code": "C28161",
              "display": "Intramuscular injection"
            }
          ]
        },
        "doseQuantity": {
          "value": 50,
          "unit": "ug",
          "system": "http://unitsofmeasure.org/ucum.html"
        },
        "performer": [
          {
            "function": {
              "coding": [
                {
                  "system": "http://hl7.org/fhir/v2/0443",
                  "code": "AP",
                  "display": "Administering Provider"
                }
              ]
            },
            "actor": {
              "reference": "Practitioner/68",
              "display": "Harold Hippocrates"
            }
          }
        ]
      }
    },
    {
      "resource": {
        "resourceType": "Organization",
        "id": "67",
        "name": "Health LS - Immuno Inc."
      }
    },
    {
      "resource": {
        "resourceType": "Practitioner",
        "id": "68",
        "identifier": [
          {
            "use": "official",
            "system": "urn:oid:2.16.840.1.113883.19.5.9999.456",
            "value": "2981824"
          }
        ],
        "name": [
          {
            "family": "Hippocrates",
            "given": [
              "Harold"
            ]
          }
        ],
        "telecom": [
          {
            "system": "phone",
            "value": " +1(555)555-1030",
            "use": "work"
          }
        ],
        "address": [
          {
            "line": [
              "1007 Health Drive"
            ],
            "city": "Portland",
            "state": "OR",
            "postalCode": "99123",
            "country": "US"
          }
        ]
      }
    },
    {
      "resource": {
        "resourceType": "PractitionerRole",
        "id": "69",
        "practitioner": {
          "reference": "Practitioner/68",
          "display": "Harold Hippocrates"
        },
        "organization": {
          "reference": "Organization/70",
          "display": "Good Health Clinic"
        }
      }
    },
    {
      "resource": {
        "resourceType": "Organization",
        "id": "70",
        "identifier": [
          {
            "use": "official",
            "value": "2.16.840.1.113883.19.5.9999.1394"
          }
        ],
        "name": "Good Health Clinic",
        "telecom": [
          {
            "system": "phone",
            "value": " +1(555)555-1030",
            "use": "work"
          }
        ]
      }
    },
    {
      "resource": {
        "resourceType": "Immunization",
        "id": "71",
        "identifier": [
          {
            "use": "official",
            "value": "e6f1ba43-c0ed-4b9b-9f12-f435d8ad8f92"
          }
        ],
        "status": "completed",
        "vaccineCode": {
          "coding": [
            {
              "system": "urn:oid:2.16.840.1.113883.6.59",
              "code": "88",
              "display": "Influenza virus vaccine"
            }
          ]
        },
        "patient": {
          "reference": "Patient/2",
          "display": "Eve Betterhalf"
        },
        "occurrenceDateTime": "1998-12-15",
        "primarySource": true,
        "manufacturer": {
          "reference": "Organization/72",
          "display": "Health LS - Immuno Inc."
        },
        "lotNumber": "1",
        "route": {
          "coding": [
            {
              "system": "http://www.nlm.nih.gov/research/umls/nci",
              "code": "C28161",
              "display": "Intramuscular injection"
            }
          ]
        },
        "doseQuantity": {
          "value": 50,
          "unit": "ug",
          "system": "http://unitsofmeasure.org/ucum.html"
        },
        "performer": [
          {
            "function": {
              "coding": [
                {
                  "system": "http://hl7.org/fhir/v2/0443",
                  "code": "AP",
                  "display": "Administering Provider"
                }
              ]
            },
            "actor": {
              "reference": "Practitioner/68",
              "display": "Harold Hippocrates"
            }
          }
        ]
      }
    },
    {
      "resource": {
        "resourceType": "Organization",
        "id": "72",
        "name": "Health LS - Immuno Inc."
      }
    },
    {
      "resource": {
        "resourceType": "Immunization",
        "id": "73",
        "identifier": [
          {
            "use": "official",
            "value": "e6f1ba43-c0ed-4b9b-9f12-f435d8ad8f92"
          }
        ],
        "status": "completed",
        "vaccineCode": {
          "coding": [
            {
              "system": "urn:oid:2.16.840.1.113883.6.59",
              "code": "33",
              "display": "Pneumococcal polysaccharide vaccine"
            }
          ]
        },
        "patient": {
          "reference": "Patient/2",
          "display": "Eve Betterhalf"
        },
        "occurrenceDateTime": "1998-12-15",
        "primarySource": true,
        "manufacturer": {
          "reference": "Organization/74",
          "display": "Health LS - Immuno Inc."
        },
        "lotNumber": "1",
        "route": {
          "coding": [
            {
              "system": "http://www.nlm.nih.gov/research/umls/nci",
              "code": "C28161",
              "display": "Intramuscular injection"
            }
          ]
        },
        "doseQuantity": {
          "value": 50,
          "unit": "ug",
          "system": "http://unitsofmeasure.org/ucum.html"
        },
        "performer": [
          {
            "function": {
              "coding": [
                {
                  "system": "http://hl7.org/fhir/v2/0443",
                  "code": "AP",
                  "display": "Administering Provider"
                }
              ]
            },
            "actor": {
              "reference": "Practitioner/68",
              "display": "Harold Hippocrates"
            }
          }
        ],
        "reaction": [
          {
            "date": "1998-12-15T08:05:00-08:00",
            "detail": {
              "reference": "Observation/75"
            }
          }
        ]
      }
    },
    {
      "resource": {
        "resourceType": "Organization",
        "id": "74",
        "name": "Health LS - Immuno Inc."
      }
    },
    {
      "resource": {
        "resourceType": "Observation",
        "id": "75",
        "identifier": [
          {
            "use": "official",
            "value": "4adc1020-7b14-11db-9fe1-0800200c9a64"
          }
        ],
        "status": "final",
        "code": {
          "coding": [
            {
              "system": "urn:oid:2.16.840.1.113883.5.4",
              "code": "ASSERTION"
            }
          ]
        },
        "subject": {
          "reference": "Patient/2",
          "display": "Eve Betterhalf"
        },
        "effectivePeriod": {
          "start": "1998-12-15T08:05:00-08:00",
          "end": "1998-12-15T12:05:00-08:00"
        },
        "valueCodeableConcept": {
          "coding": [
            {
              "system": "http://snomed.info/sct",
              "code": "422587007",
              "display": "Nausea"
            }
          ]
        }
      }
    },
    {
      "resource": {
        "resourceType": "Immunization",
        "id": "76",
        "identifier": [
          {
            "use": "official",
            "value": "e6f1ba43-c0ed-4b9b-9f12-f435d8ad8f92"
          }
        ],
        "status": "completed",
        "vaccineCode": {
          "coding": [
            {
              "system": "urn:oid:2.16.840.1.113883.6.59",
              "code": "88",
              "display": "Influenza virus vaccine"
            }
          ]
        },
        "patient": {
          "reference": "Patient/2",
          "display": "Eve Betterhalf"
        },
        "occurrenceDateTime": "1999-11",
        "primarySource": true,
        "manufacturer": {
          "reference": "Organization/77",
          "display": "Health LS - Immuno Inc."
        },
        "lotNumber": "1",
        "route": {
          "coding": [
            {
              "system": "http://www.nlm.nih.gov/research/umls/nci",
              "code": "C28161",
              "display": "Intramuscular injection"
            }
          ]
        },
        "doseQuantity": {
          "value": 50,
          "unit": "ug",
          "system": "http://unitsofmeasure.org/ucum.html"
        },
        "performer": [
          {
            "function": {
              "coding": [
                {
                  "system": "http://hl7.org/fhir/v2/0443",
                  "code": "AP",
                  "display": "Administering Provider"
                }
              ]
            },
            "actor": {
              "reference": "Practitioner/68",
              "display": "Harold Hippocrates"
            }
          }
        ]
      }
    },
    {
      "resource": {
        "resourceType": "Organization",
        "id": "77",
        "name": "Health LS - Immuno Inc."
      }
    },
    {
      "resource": {
        "resourceType": "Immunization",
        "id": "78",
        "identifier": [
          {
            "use": "official",
            "value": "de10790f-1496-4719-8fe6-f1b87b6219f7"
          }
        ],
        "status": "completed",
        "vaccineCode": {
          "coding": [
            {
              "system": "urn:oid:2.16.840.1.113883.6.59",
              "code": "45",
              "display": "Hepatitis B vaccine"
            }
          ]
        },
        "patient": {
          "reference": "Patient/2",
          "display": "Eve Betterhalf"
        },
        "occurrenceDateTime": "2013-08-01",
        "primarySource": true,
        "lotNumber": "1",
        "route": {
          "coding": [
            {
              "system": "http://www.nlm.nih.gov/research/umls/nci",
              "code": "C28161",
              "display": "Intramuscular injection"
            }
          ]
        },
        "performer": [
          {
            "function": {
              "coding": [
                {
                  "system": "http://hl7.org/fhir/v2/0443",
                  "code": "AP",
                  "display": "Administering Provider"
                }
              ]
            },
            "actor": {
              "reference": "Practitioner/68",
              "display": "Harold Hippocrates"
            }
          }
        ],
        "reasonCode": [
          {
            "coding": [
              {
                "system": "http://snomed.info/sct",
                "code": "195967001",
                "display": "Asthma"
              }
            ]
          }
        ]
      }
    },
    {
      "resource": {
        "resourceType": "DiagnosticReport",
        "id": "79",
        "identifier": [
          {
            "use": "official",
            "value": "7d5a02b0-67a4-11db-bd13-0800200c9a66"
          }
        ],
        "status": "final",
        "code": {
          "coding": [
            {
              "system": "http://loinc.org",
              "code": "57021-8",
              "display": "CBC W Auto Differential panel in Blood"
            }
          ]
        },
        "subject": {
          "reference": "Patient/2",
          "display": "Eve Betterhalf"
        },
        "effectivePeriod": {
          "start": "2008-03-19T08:30:00-08:00",
          "end": "2008-03-19T08:30:00-08:00"
        },
        "result": [
          {
            "reference": "Observation/80",
            "display": "Hemoglobin"
          },
          {
            "reference": "Observation/83",
            "display": "Hematocrit"
          },
          {
            "reference": "Observation/84",
            "display": "Leukocytes"
          },
          {
            "reference": "Observation/85",
            "display": "Erythrocytes"
          },
          {
            "reference": "Observation/86",
            "display": "Platelets"
          }
        ]
      }
    },
    {
      "resource": {
        "resourceType": "Observation",
        "id": "80",
        "identifier": [
          {
            "use": "official",
            "value": "107c2dc0-67a5-11db-bd13-0800200c9a66"
          }
        ],
        "status": "final",
        "code": {
          "coding": [
            {
              "system": "http://loinc.org",
              "code": "718-7",
              "display": "Hemoglobin"
            }
          ]
        },
        "subject": {
          "reference": "Patient/2",
          "display": "Eve Betterhalf"
        },
        "effectivePeriod": {
          "start": "2008-03-19T08:30:00-08:00"
        },
        "issued": "2008-03-19T08:30:00-08:00",
        "performer": [
          {
            "reference": "Practitioner/81"
          }
        ],
        "valueQuantity": {
          "value": 13.2,
          "unit": "g/dL"
        },
        "interpretation": [
          {
            "coding": [
              {
                "system": "http://hl7.org/fhir/v2/0078",
                "code": "N"
              }
            ]
          }
        ],
        "referenceRange": [
          {
            "low": {
              "value": 12.0,
              "unit": "g/dL",
              "system": "http://unitsofmeasure.org/ucum.html"
            },
            "high": {
              "value": 15.5,
              "unit": "g/dL",
              "system": "http://unitsofmeasure.org/ucum.html"
            }
          }
        ]
      }
    },
    {
      "resource": {
        "resourceType": "Practitioner",
        "id": "81",
        "identifier": [
          {
            "use": "official",
            "system": "urn:oid:2.16.840.1.113883.4.6",
            "value": "333444444"
          }
        ]
      }
    },
    {
      "resource": {
        "resourceType": "Observation",
        "id": "83",
        "identifier": [
          {
            "use": "official",
            "value": "7c0704bb-9c40-41b5-9c7d-26b2d59e234f"
          }
        ],
        "status": "final",
        "code": {
          "coding": [
            {
              "system": "http://loinc.org",
              "code": "4544-3",
              "display": "Hematocrit"
            }
          ]
        },
        "subject": {
          "reference": "Patient/2",
          "display": "Eve Betterhalf"
        },
        "effectivePeriod": {
          "start": "2008-03-19T08:30:00-08:00"
        },
        "issued": "2008-03-19T08:30:00-08:00",
        "performer": [
          {
            "reference": "Practitioner/81"
          }
        ],
        "valueQuantity": {
          "value": 35.3,
          "unit": "%"
        },
        "interpretation": [
          {
            "coding": [
              {
                "system": "http://hl7.org/fhir/v2/0078",
                "code": "L",
                "display": "Low"
              }
            ]
          }
        ],
        "referenceRange": [
          {
            "low": {
              "value": 34.9,
              "unit": "%",
              "system": "http://unitsofmeasure.org/ucum.html"
            },
            "high": {
              "value": 44.5,
              "unit": "%",
              "system": "http://unitsofmeasure.org/ucum.html"
            }
          }
        ]
      }
    },
    {
      "resource": {
        "resourceType": "Observation",
        "id": "84",
        "identifier": [
          {
            "use": "official",
            "value": "a69b3d60-2ffd-4440-958b-72b3335ff35f"
          }
        ],
        "status": "final",
        "code": {
          "coding": [
            {
              "system": "http://loinc.org",
              "code": "6690-2",
              "display": "Leukocytes"
            }
          ]
        },
        "subject": {
          "reference": "Patient/2",
          "display": "Eve Betterhalf"
        },
        "effectivePeriod": {
          "start": "2008-03-19T08:30:00-08:00"
        },
        "issued": "2008-03-19T08:30:00-08:00",
        "performer": [
          {
            "reference": "Practitioner/81"
          }
        ],
        "valueQuantity": {
          "value": 6.7,
          "unit": "10*9/L"
        },
        "interpretation": [
          {
            "coding": [
              {
                "system": "http://hl7.org/fhir/v2/0078",
                "code": "N"
              }
            ]
          }
        ],
        "referenceRange": [
          {
            "low": {
              "value": 4.3,
              "unit": "10*9/L",
              "system": "http://unitsofmeasure.org/ucum.html"
            },
            "high": {
              "value": 10.8,
              "unit": "10*9/L",
              "system": "http://unitsofmeasure.org/ucum.html"
            }
          }
        ]
      }
    },
    {
      "resource": {
        "resourceType": "Observation",
        "id": "85",
        "identifier": [
          {
            "use": "official",
            "value": "bccd6fc9-0c7f-455e-8616-923ed0d04d09"
          }
        ],
        "status": "final",
        "code": {
          "coding": [
            {
              "system": "http://loinc.org",
              "code": "789-8",
              "display": "Erythrocytes"
            }
          ]
        },
        "subject": {
          "reference": "Patient/2",
          "display": "Eve Betterhalf"
        },
        "effectivePeriod": {
          "start": "2008-03-19T08:30:00-08:00"
        },
        "issued": "2008-03-19T08:30:00-08:00",
        "performer": [
          {
            "reference": "Practitioner/81"
          }
        ],
        "valueQuantity": {
          "value": 4.21,
          "unit": "10*12/L"
        },
        "interpretation": [
          {
            "coding": [
              {
                "system": "http://hl7.org/fhir/v2/0078",
                "code": "N"
              }
            ]
          }
        ],
        "referenceRange": [
          {
            "low": {
              "value": 3.90,
              "unit": "10*12/L",
              "system": "http://unitsofmeasure.org/ucum.html"
            },
            "high": {
              "value": 5.03,
              "unit": "10*12/L",
              "system": "http://unitsofmeasure.org/ucum.html"
            }
          }
        ]
      }
    },
    {
      "resource": {
        "resourceType": "Observation",
        "id": "86",
        "identifier": [
          {
            "use": "official",
            "value": "ef5c1c58-4665-4556-a8e8-6e720d82f572"
          }
        ],
        "status": "final",
        "code": {
          "coding": [
            {
              "system": "http://loinc.org",
              "code": "777-3",
              "display": "Platelets"
            }
          ]
        },
        "subject": {
          "reference": "Patient/2",
          "display": "Eve Betterhalf"
        },
        "effectivePeriod": {
          "start": "2008-03-19T08:30:00-08:00"
        },
        "issued": "2008-03-19T08:30:00-08:00",
        "performer": [
          {
            "reference": "Practitioner/81"
          }
        ],
        "valueQuantity": {
          "value": 123,
          "unit": "10*9/L"
        },
        "interpretation": [
          {
            "coding": [
              {
                "system": "http://hl7.org/fhir/v2/0078",
                "code": "L",
                "display": "Low"
              }
            ]
          }
        ],
        "referenceRange": [
          {
            "low": {
              "value": 150,
              "unit": "10*9/L",
              "system": "http://unitsofmeasure.org/ucum.html"
            },
            "high": {
              "value": 350,
              "unit": "10*9/L",
              "system": "http://unitsofmeasure.org/ucum.html"
            }
          }
        ]
      }
    },
    {
      "resource": {
        "resourceType": "DiagnosticReport",
        "id": "87",
        "identifier": [
          {
            "use": "official",
            "value": "122ed3ae-6d9e-43d0-bfa2-434ea34b1426"
          }
        ],
        "status": "partial",
        "code": {
          "coding": [
            {
              "system": "http://snomed.info/sct",
              "code": "166312007",
              "display": "Blood chemistry test"
            }
          ]
        },
        "subject": {
          "reference": "Patient/2",
          "display": "Eve Betterhalf"
        },
        "effectivePeriod": {
          "start": "2008-03-20T09:30:00-08:00",
          "end": "2008-03-20T09:30:00-08:00"
        },
        "result": [
          {
            "reference": "Observation/88",
            "display": "Urea nitrogen, Serum"
          }
        ]
      }
    },
    {
      "resource": {
        "resourceType": "Observation",
        "id": "88",
        "identifier": [
          {
            "use": "official",
            "value": "aed821af-3330-4138-97f0-e84dfe5f3c35"
          }
        ],
        "status": "preliminary",
        "code": {
          "coding": [
            {
              "system": "http://loinc.org",
              "code": "3094-0",
              "display": "Urea nitrogen, Serum"
            }
          ]
        },
        "subject": {
          "reference": "Patient/2",
          "display": "Eve Betterhalf"
        },
        "effectivePeriod": {
          "start": "2008-03-20T09:30:00-08:00"
        },
        "dataAbsentReason": {
          "coding": [
            {
              "system": "http://hl7.org/fhir/data-absent-reason",
              "code": "error",
              "display": "Error"
            }
          ]
        }
      }
    }
  ]
}